File: Part 6 Raman Spectroscopy/Raman data/diamond_data.txt
#Wave		#Intensity
2381.98	11508.1
2378.62	11449.2
2375.26	11433.3
2371.9	11434.2
2368.54	11443.5
2365.18	11299.1
2361.81	11355.8
2358.45	11418.6
2355.08	11359.2
2351.71	11296
2348.34	11328.9
2344.97	11372.5
2341.6	11163
2338.23	11199.8
2334.85	11220.5
2331.48	11124
2328.1	10962.1
2324.72	11189.8
2321.34	11062.3
2317.96	10919.6
2314.58	10985.9
2311.19	10986.9
2307.81	10934
2304.42	10857.6
2301.03	10885.2
2297.64	10749
2294.25	10756.1
2290.86	10774.6
2287.47	10693.8
2284.07	10766.1
2280.68	10667.2
2277.28	10658.4
2273.88	10618.7
2270.48	10485.2
2267.08	10528.7
2263.68	10469.4
2260.27	10496.9
2256.87	10439.9
2253.46	10422.2
2250.05	10367.5
2246.64	10432.8
2243.23	10320.1
2239.82	10359.7
2236.4	10302.1
2232.99	10303.3
2229.57	10196.1
2226.16	10240.9
2222.74	10179
2219.32	10118.5
2215.89	10056.7
2212.47	9965.57
2209.05	9999.11
2205.62	10092.6
2202.19	9994.12
2198.76	9966.13
2195.33	9939.67
2191.9	9938.68
2188.47	9922.72
2185.04	9995.82
2181.6	9828.74
2178.16	9816.57
2174.72	9849.25
2171.29	9800.47
2167.84	9774.87
2164.4	9718.68
2160.96	9766.27
2157.51	9663.87
2154.07	9703.23
2150.62	9608.39
2147.17	9515.11
2143.72	9516.49
2140.27	9572.21
2136.81	9483.51
2133.36	9457.37
2129.9	9455.78
2126.44	9330.81
2122.98	9451.11
2119.52	9400.51
2116.06	9254.91
2112.6	9484.17
2109.13	9383.91
2105.67	9317.08
2102.2	9411.88
2098.73	9293.23
2095.26	9374.63
2091.79	9282.74
2088.31	9241.97
2084.84	9164.99
2081.37	9269.21
2077.89	9129.46
2074.41	9176.72
2070.93	9193.67
2067.45	9155.23
2063.96	9157.41
2060.48	9161.79
2056.99	9200.82
2053.51	9053.37
2050.02	9037.89
2046.53	9056.29
2043.04	9057.01
2039.54	9045.96
2036.05	8973.13
2032.55	9009.16
2029.05	9019.44
2025.55	8987.84
2022.05	8891.65
2018.55	8911.5
2015.05	8892.44
2011.54	8921.8
2008.04	8905.69
2004.53	8904.97
2001.02	8843.45
1997.51	8860.32
1994	8754.96
1990.49	8752.1
1986.97	8861.85
1983.46	8803.39
1979.94	8718.67
1976.42	8797.61
1972.9	8634.84
1969.38	8742.94
1965.86	8732.78
1962.33	8672.31
1958.8	8703.72
1955.28	8722.72
1951.75	8699.46
1948.22	8692.96
1944.69	8650.81
1941.15	8650.87
1937.62	8697.46
1934.08	8544.89
1930.54	8571.87
1927	8563.97
1923.46	8524.86
1919.92	8600.42
1916.38	8599.04
1912.83	8546.91
1909.29	8478.88
1905.74	8477.54
1902.19	8522.53
1898.64	8475.57
1895.08	8476.4
1891.53	8504.7
1887.97	8466.47
1884.42	8426.83
1880.86	8439.94
1877.3	8317.32
1873.74	8342.73
1870.17	8342.86
1866.61	8322.09
1863.04	8207.63
1859.48	8331.73
1855.91	8303.78
1852.34	8355.03
1848.77	8273.84
1845.19	8268.23
1841.62	8246.81
1838.04	8129.11
1834.46	8176
1830.88	8232.9
1827.3	8235.2
1823.72	8179.39
1820.14	8112.87
1816.55	8211.98
1812.97	8114.68
1809.38	8074.76
1805.79	8076.39
1802.2	8138.13
1798.6	8055.33
1795.01	8102
1791.41	8100.75
1787.82	8073.07
1784.22	8105.39
1780.62	8054.88
1777.02	8034.37
1773.41	7966.81
1769.81	7944.21
1766.2	7895.27
1762.59	7956.77
1758.98	7882.23
1755.37	7891.01
1751.76	7853.55
1748.15	7818.24
1744.53	7797.18
1740.91	7711.48
1737.29	7716.04
1733.68	7756.1
1730.05	7774.12
1726.43	7846.74
1722.81	7617.96
1719.18	7634.59
1715.55	7717.8
1711.92	7747.11
1708.29	7806.84
1704.66	7711.56
1701.03	7801.66
1697.39	7838.66
1693.75	7716.63
1690.12	7792.48
1686.48	7859.79
1682.83	7833.88
1679.19	7706.4
1675.55	7758.85
1671.9	7816.88
1668.25	7791.03
1664.6	7746.17
1660.95	7766.82
1657.3	7729.05
1653.65	7749.69
1649.99	7671.87
1646.33	7635.59
1642.68	7581.77
1639.02	7540.63
1635.36	7613.23
1631.69	7534.23
1628.03	7545.75
1624.36	7515.9
1620.69	7545.64
1617.02	7499
1613.35	7455.21
1609.68	7512.92
1606.01	7513.21
1602.33	7431.7
1598.65	7473.27
1594.97	7391.84
1591.29	7404.05
1587.61	7329
1583.93	7406.8
1580.24	7317.17
1576.56	7369.81
1572.87	7401.5
1569.18	7309.19
1565.49	7327.65
1561.79	7424.73
1558.1	7495.99
1554.4	7637.41
1550.71	7950.38
1547.01	8017.84
1543.3	8351.9
1539.6	8424.68
1535.9	8677.79
1532.19	8805.15
1528.49	8824.95
1524.78	8661.79
1521.07	8669.16
1517.36	8549.82
1513.64	8462.42
1509.93	8396.53
1506.21	8179.95
1502.49	8009.87
1498.77	7795.03
1495.05	7666
1491.33	7457
1487.6	7257.84
1483.88	7196.1
1480.15	7111.66
1476.42	7011.44
1472.69	6978.12
1468.95	6977.18
1465.22	6834.47
1461.48	6859.04
1457.75	6801.08
1454.01	6852.45
1450.27	6785.6
1446.52	6798.47
1442.78	6792.8
1439.03	6602.55
1435.29	6504.38
1431.54	6473.46
1427.79	6411.05
1424.03	6456.92
1420.28	6485.62
1416.53	6517.04
1412.77	6572.36
1409.01	6663.88
1405.25	6684.24
1401.49	6796.12
1397.72	6726.94
1393.96	6853.72
1390.19	6891.01
1386.42	6839.6
1382.65	6990.02
1378.88	6927.71
1375.11	6917.9
1371.33	7078.29
1367.56	7190.91
1363.78	7193.23
1360	7337.66
1356.22	7506.42
1352.43	8048.66
1348.65	9219.21
1344.86	14589.4
1341.07	39382.2
1337.29	69861.4
1333.49	91236.9
1329.7	89550.8
1325.91	39050.3
1322.11	14447.9
1318.31	9152.7
1314.51	7865.63
1310.71	7328.77
1306.91	6976.2
1303.1	6767.13
1299.3	6565.68
1295.49	6441.33
1291.68	6221.97
1287.87	6022.36
1284.05	5940.87
1280.24	5914.03
1276.42	5755.89
1272.61	5781.65
1268.79	5666.08
1264.96	5646.8
1261.14	5630.89
1257.32	5479.25
1253.49	5507.08
1249.66	5438.21
1245.83	5424.42
1242	5363.69
1238.17	5329.84
1234.34	5300.03
1230.5	5303.07
1226.66	5267.94
1222.82	5224.8
1218.98	5194.41
1215.14	5211.53
1211.29	5114.33
1207.45	5239.71
1203.6	5160.61
1199.75	5128.3
1195.9	5150.08
1192.04	5098.46
1188.19	5102.23
1184.33	4989.37
1180.47	4985.84
1176.61	5066.22
1172.75	5007.42
1168.89	4893.46
1165.02	4945.84
1161.16	4905.12
1157.29	4983.35
1153.42	4848.35
1149.55	4865.46
1145.67	4812.9
1141.8	4837.97
1137.92	4825.9
1134.04	4757.52
1130.16	4701.77
1126.28	4667.93
1122.4	4708.22
1118.51	4663.15
1114.62	4669.7
1110.73	4660.37
1106.84	4586.97
1102.95	4630.51
1099.06	4658.83
1095.16	4596.74
1091.27	4582.84
1087.37	4501.73
1083.46	4547.83
1079.56	4492.48
1075.66	4541.84
1071.75	4477.33
1067.84	4390.52
1063.93	4460.89
1060.02	4456.94
1056.11	4474.02
1052.2	4381.44
1048.28	4345.38
1044.36	4409.71
1040.44	4336.29
1036.52	4371.07
1032.6	4331.14
1028.67	4240.83
1024.74	4299.82
1020.81	4270.44
1016.88	4218.85
1012.95	4246.39
1009.02	4215.77
1005.08	4159.04
1001.15	4131.74
997.207	4151.44
993.266	4143.73
989.324	4111.25
985.379	4111.38
981.434	4080.25
977.484	4086.25
973.535	4092.89
969.584	4042.29
965.631	4063.9
961.676	4047.15
957.719	4010.27
953.762	3979.92
949.801	4035.26
945.84	3939.41
941.875	3934.41
937.91	3885.35
933.943	3933.5
929.973	3905.2
926.002	3895.05
922.031	3904.95
918.057	3857.95
914.08	3891.13
910.102	3837.07
906.123	3861.83
902.141	3805.89
898.158	3809.35
894.174	3772.18
890.186	3787.26
886.197	3709.53
882.207	3756.18
878.215	3782.83
874.221	3711
870.227	3665.6
866.229	3749.47
862.229	3716.31
858.229	3685.1
854.225	3649.42
850.221	3669.61
846.215	3709.02
842.207	3630.42
838.197	3636.48
834.186	3611.15
830.172	3594.17
826.156	3588.07
822.139	3610.78
818.119	3634.74
814.1	3529.56
810.076	3526.7
806.053	3558.33
802.025	3512.05
797.998	3493.88
793.969	3535.68
789.936	3529
785.902	3470.07
781.867	3474.24
777.83	3515.33
773.791	3459.66
769.752	3364.61
765.709	3434.94
761.664	3392.73
757.617	3372.15
753.57	3368.72
749.52	3385.61
745.469	3294.65
741.416	3345.16
737.359	3323.37
733.303	3302.87
729.244	3263.39
725.184	3278.38
721.121	3228.19
717.057	3294.39
712.99	3203.79
708.922	3175.81
704.852	3222.37
700.781	3196.93
696.707	3194.23
692.631	3143.6
688.555	3112.56
684.475	3101.07
680.395	3160.76
676.312	3077.5
672.227	3083.66
668.141	3106.79
664.053	3082.13
659.963	3026.7
655.869	3032.87
651.775	3115.62
647.68	3000
643.582	3020.6
639.484	3030.52
635.383	3006.58
631.279	2997.08
627.174	2951.27
623.066	2936.17
618.959	2902.31
614.848	2911
610.736	2859.06
606.621	2905.86
602.504	2900.17
598.387	2894.49
594.268	2807.72
590.145	2899.97
586.021	2886.19
581.896	2847.5
577.768	2821.92
573.639	2826.87
569.508	2818.74
565.375	2754.03
561.24	2789.45
557.104	2759.61
552.965	2738.48
548.824	2791.23
544.682	2754.6
540.537	2722.96
536.391	2693.21
532.242	2683.31
528.094	2683.95
523.941	2653.01
519.787	2651.8
515.631	2582.57
511.475	2612.3
507.314	2578.98
503.152	2598.8
498.99	2522.92
494.824	2518.69
490.658	2608.81
486.488	2580.5
482.318	2563.92
478.145	2559.05
473.971	2486.47
469.793	2511.18
465.615	2532.79
461.436	2459.7
457.252	2463.49
453.068	2424.9
448.883	2436.07
444.693	2450.91
440.504	2405.63
436.312	2448.06
432.119	2401.59
427.922	2342.3
423.725	2336.33
419.525	2380.54
415.324	2376.39
411.121	2363.69
406.916	2347.94
402.707	2294.94
398.498	2312.81
394.287	2328.23
390.074	2289.34
385.859	2236.46
381.643	2223.25
377.424	2256.34
373.203	2246.17
368.98	2243.31
364.756	2219.17
360.529	2205.99
356.299	2136.3
352.068	2197.28
347.836	2219.95
343.602	2173.41
339.365	2113.56
335.127	2127.14
330.887	2146.77
326.645	2130.64
322.4	2090.3
318.154	2048.18
313.906	2034.53
309.656	2043.26
305.404	2019.96
301.15	2016.61
296.895	2012.06
292.637	2025.62
288.377	1941.43
284.115	1975.5
279.852	1974.59
275.586	1935.73
271.316	1934.83
267.047	1932.13
262.775	1907.17
258.502	1884.04
254.227	1906.61
249.949	1858.27
245.67	1861.61
241.389	1870.96
237.104	1832.29
232.818	1820.05
228.531	1831.79
224.242	1806.38
219.949	1774.4
215.656	1821.47
211.361	1733.87
207.062	1772.54
202.764	1733.46
198.463	1762.53
194.158	1697.21
189.854	1677.92
185.547	1678.93
181.236	1671.59
176.926	1677.37
172.611	1693.87
168.297	1647.83
163.979	1628.01
159.658	1634.99
155.338	1615.2
151.014	1637.63
146.688	1624.99
142.361	1626.61
138.031	1599.14
133.699	1577.63
129.365	1565.62
125.031	1560.15
120.693	1496.62
116.354	1429.01
112.012	1340.73
107.668	1131.25
103.322	822.614
98.9746	539.09