File: Part 6 Raman Spectroscopy/Raman data/Microcellulose.txt
#Wave		#Intensity
4001.69	4819.37
3999.87	4764.71
3998.04	4449.76
3996.22	4391.42
3994.39	4152.93
3992.57	4187.65
3990.74	4126.69
3988.91	4178.25
3987.08	4165.12
3985.26	4219.43
3983.42	4147.33
3981.59	4170.71
3979.76	4339.96
3977.93	4450.17
3976.1	4560.27
3974.26	4535.8
3972.43	4704.57
3970.59	4906.78
3968.75	4543.65
3966.92	4664.64
3965.08	4788.32
3963.24	4484.4
3961.4	4432.11
3959.56	4421.73
3957.71	4338.81
3955.87	4147.2
3954.03	3941.82
3952.18	4068.21
3950.34	3974.46
3948.49	3967.09
3946.64	3979.21
3944.8	3921.78
3942.95	4064.57
3941.1	4226.68
3939.25	4291.43
3937.4	4419.97
3935.54	4420.74
3933.69	4438.15
3931.84	4547.04
3929.98	4569.92
3928.13	4603.86
3926.27	4455.03
3924.42	4428.1
3922.56	4547.8
3920.7	4354.95
3918.84	4098.7
3916.98	3958.71
3915.12	3981.77
3913.26	3955.12
3911.39	3989.18
3909.53	3857.77
3907.67	3800.89
3905.8	3859.77
3903.93	4042.52
3902.07	4062.7
3900.2	4014.08
3898.33	4339.5
3896.46	4274.3
3894.59	4415.23
3892.72	4270.41
3890.84	4460.62
3888.97	4258.29
3887.1	4267.32
3885.22	4309.24
3883.35	4151.09
3881.47	4077.99
3879.59	3985.8
3877.71	3819.8
3875.84	3779.77
3873.96	3772.58
3872.08	3803.65
3870.19	3812.84
3868.31	3723.74
3866.43	3937.61
3864.54	3905.81
3862.66	4043.06
3860.77	4008.51
3858.88	4134.7
3857	4162.76
3855.11	4215.28
3853.22	4088.23
3851.33	4235.9
3849.44	4155.15
3847.55	4022.87
3845.65	3966.72
3843.76	3935.06
3841.86	3879
3839.97	3730.81
3838.07	3853.77
3836.17	3586.54
3834.28	3755.47
3832.38	3721.28
3830.48	3746.62
3828.58	3855.77
3826.68	3883.73
3824.77	3911.66
3822.87	3993.57
3820.97	3926.97
3819.06	3922.47
3817.15	3912.58
3815.25	3999.73
3813.34	3892.82
3811.43	3934.12
3809.52	3816.58
3807.61	3938.58
3805.7	3880.3
3803.79	3811.32
3801.88	3685.99
3799.96	3611.79
3798.05	3704.07
3796.13	3565.54
3794.21	3735.52
3792.3	3650.71
3790.38	3681.18
3788.46	3810.71
3786.54	3851.78
3784.62	3753.69
3782.7	3773.36
3780.77	3910.61
3778.85	3828.66
3776.93	3773.48
3775	3729.04
3773.07	3780.68
3771.15	3522.92
3769.22	3531.96
3767.29	3413.09
3765.36	3456.79
3763.43	3276.85
3761.5	3248.73
3759.57	3045.11
3757.63	3134.08
3755.7	3039.64
3753.76	3062.14
3751.83	3042.14
3749.89	2958.48
3747.95	3041.98
3746.01	3019.37
3744.07	2922.59
3742.13	3021.87
3740.19	2962.24
3738.25	2881.49
3736.31	2824.61
3734.36	2519.3
3732.42	2457.36
3730.47	2281.91
3728.52	2032.7
3726.58	1931.49
3724.63	1774.99
3722.68	1531.64
3720.73	1354.38
3718.78	1272.11
3716.82	1139.89
3714.87	1031.48
3712.92	925.797
3710.96	830.727
3709.01	814.576
3707.05	774.801
3705.09	737.689
3703.13	724.226
3701.17	658.32
3699.21	707.824
3697.25	707.495
3695.29	717.643
3693.33	719.928
3691.36	811.178
3689.4	831.724
3687.43	917.608
3685.46	1037.38
3683.5	1193.61
3681.53	1297.48
3679.56	1448.22
3677.59	1421.47
3675.62	1551.15
3673.64	1425.35
3671.67	1429.9
3669.7	1483.9
3667.72	1314.07
3665.75	1199.02
3663.77	1180.26
3661.79	1036.8
3659.81	875.282
3657.83	838.529
3655.85	703.206
3653.87	687.316
3651.89	648.108
3649.9	725.543
3647.92	642.323
3645.94	742.987
3643.95	789.217
3641.96	812.126
3639.97	928.079
3637.99	989.661
3636	1079.59
3634	1151.37
3632.01	1145.67
3630.02	1191.56
3628.03	1260.61
3626.03	1200.76
3624.04	1158.99
3622.04	1155.87
3620.04	1047.26
3618.04	974.753
3616.04	889.463
3614.04	817.101
3612.04	801.308
3610.04	764.993
3608.04	759.503
3606.04	756.582
3604.03	733.156
3602.02	842.99
3600.02	870.767
3598.01	954.834
3596	1013.24
3593.99	1115.06
3591.98	1145.21
3589.97	1108.9
3587.96	1215.64
3585.94	1138.49
3583.93	1176.23
3581.91	1086.42
3579.9	1085.91
3577.88	1042.08
3575.86	965.192
3573.84	896.01
3571.82	887.956
3569.8	857.021
3567.78	810.864
3565.76	820.645
3563.73	845.653
3561.71	931.557
3559.68	913.359
3557.66	1001.69
3555.63	1079.79
3553.6	1200.89
3551.57	1187.66
3549.54	1255.44
3547.51	1186.54
3545.48	1251.73
3543.44	1152.57
3541.41	1194.97
3539.38	1111.08
3537.34	1024.74
3535.3	1031.82
3533.26	1028.81
3531.22	930.029
3529.18	977.455
3527.14	951.813
3525.1	958.914
3523.06	953.429
3521.01	1038.47
3518.97	1065.62
3516.92	1165.6
3514.88	1162.54
3512.83	1342.69
3510.78	1226.66
3508.73	1253.66
3506.68	1283.14
3504.63	1272.52
3502.58	1259.39
3500.52	1186.22
3498.47	1073.1
3496.41	1132.59
3494.35	1104.57
3492.3	1086.56
3490.24	1081.05
3488.18	1135.44
3486.12	1107.46
3484.06	1116.91
3481.99	1218.55
3479.93	1242.88
3477.87	1277.14
3475.8	1343.72
3473.74	1402.77
3471.67	1414.54
3469.6	1364.17
3467.53	1467.83
3465.46	1338.05
3463.39	1292.75
3461.32	1284.69
3459.24	1311.35
3457.17	1300.81
3455.09	1282.86
3453.02	1242.64
3450.94	1217.31
3448.86	1305.76
3446.78	1312.55
3444.7	1341.58
3442.62	1345.88
3440.54	1468.65
3438.46	1482.75
3436.37	1533.83
3434.29	1503.52
3432.2	1483.1
3430.11	1573.5
3428.03	1489.06
3425.94	1503.11
3423.85	1431.09
3421.76	1413.2
3419.66	1380.59
3417.57	1456.05
3415.48	1425.9
3413.38	1454.66
3411.29	1414.73
3409.19	1470.42
3407.09	1535.86
3404.99	1574.3
3402.89	1568.65
3400.79	1572.79
3398.69	1594.04
3396.58	1522.41
3394.48	1565.65
3392.38	1547.81
3390.27	1527.55
3388.16	1497.55
3386.05	1506.58
3383.94	1500.98
3381.83	1539.23
3379.72	1516.59
3377.61	1593.72
3375.5	1646.46
3373.38	1560.59
3371.27	1627.87
3369.15	1738.8
3367.03	1626.31
3364.92	1686.18
3362.8	1675.67
3360.68	1730.62
3358.55	1722.52
3356.43	1646.62
3354.31	1645.83
3352.18	1657.14
3350.06	1685.35
3347.93	1665.21
3345.8	1654.75
3343.68	1711.9
3341.55	1670.05
3339.42	1693.36
3337.29	1690.14
3335.15	1831.51
3333.02	1792.09
3330.88	1769.55
3328.75	1838.49
3326.61	1731.77
3324.47	1911.24
3322.33	1828.62
3320.2	1755.69
3318.05	1860.47
3315.91	1787.59
3313.77	1813.1
3311.62	1872.16
3309.48	1808.96
3307.33	1824.85
3305.19	1862.27
3303.04	1959.46
3300.89	1867.64
3298.74	1897.81
3296.59	1968.56
3294.44	1915.08
3292.28	1906.99
3290.13	1934.7
3287.97	2017.22
3285.82	2009.09
3283.66	2027.17
3281.5	2014.29
3279.34	1863.39
3277.18	1990.93
3275.02	2011.36
3272.86	2005.64
3270.69	2040.29
3268.53	2013.19
3266.36	2012.21
3264.19	2006.49
3262.03	1960.48
3259.86	1987.96
3257.69	2013.05
3255.52	2033.38
3253.34	1956.68
3251.17	2024.31
3249	2082.42
3246.82	2005.8
3244.64	2127.62
3242.47	2195.04
3240.29	2083.09
3238.11	2129.24
3235.93	2125.85
3233.75	2030.58
3231.56	2024.89
3229.38	2016.84
3227.2	2185.22
3225.01	2083.06
3222.82	2067.95
3220.63	1998.83
3218.45	2124.63
3216.25	2149.4
3214.06	2061.58
3211.87	2116.83
3209.68	2026.76
3207.48	2107.74
3205.29	2029.47
3203.09	2012.1
3200.89	2057.89
3198.69	2014.81
3196.5	2041.87
3194.29	2075.89
3192.09	1948.85
3189.89	1966.56
3187.68	2021.56
3185.48	1901.71
3183.27	1826.24
3181.07	1615.81
3178.86	1410.23
3176.65	1244.4
3174.44	1074.08
3172.23	901.596
3170.01	840.768
3167.8	663.928
3165.58	647.361
3163.37	626.172
3161.15	593.413
3158.93	590.805
3156.71	544.201
3154.49	578.653
3152.27	573.743
3150.05	603.522
3147.83	614.782
3145.6	579.829
3143.37	616.488
3141.15	602.339
3138.92	574.363
3136.69	585.609
3134.46	589.93
3132.23	575.821
3130	584.746
3127.76	600.566
3125.53	625.57
3123.29	609.171
3121.06	689.288
3118.82	633.834
3116.58	594.501
3114.34	640.093
3112.1	612.261
3109.85	630.295
3107.61	634.566
3105.37	643.413
3103.12	668.271
3100.88	601.605
3098.63	608.167
3096.38	633.005
3094.13	662.386
3091.88	614.117
3089.62	638.915
3087.37	640.88
3085.12	681.597
3082.86	637.97
3080.6	642.209
3078.35	687.417
3076.09	662.051
3073.83	679.916
3071.57	670.489
3069.3	699.69
3067.04	735.674
3064.78	680.843
3062.51	687.311
3060.24	680.169
3057.97	711.559
3055.71	745.181
3053.44	713.118
3051.16	674.299
3048.89	737.291
3046.62	725.623
3044.34	723.004
3042.07	724.904
3039.79	767.431
3037.51	771.563
3035.23	789.219
3032.95	806.859
3030.67	718.604
3028.39	785.794
3026.11	857.419
3023.82	872.738
3021.54	809.355
3019.25	860.637
3016.96	875.931
3014.67	918.149
3012.38	917.692
3010.09	948.633
3007.79	963.852
3005.5	916.325
3003.21	994.244
3000.91	1051.94
2998.61	993.255
2996.31	1091.14
2994.01	1074.96
2991.71	1190.57
2989.41	1254.73
2987.11	1280.88
2984.8	1336
2982.5	1386.61
2980.19	1394.83
2977.88	1465.4
2975.58	1591.55
2973.27	1737.6
2970.96	1734.51
2968.64	1867
2966.33	1881.62
2964.01	1942.85
2961.7	1915.25
2959.38	1983.06
2957.06	2017.54
2954.74	2023.18
2952.42	2212.65
2950.1	2224.82
2947.78	2314.43
2945.46	2359.71
2943.13	2413.79
2940.8	2498.75
2938.48	2475.42
2936.15	2714.76
2933.82	2700.16
2931.49	2815.67
2929.16	2818.67
2926.82	3024.31
2924.49	3102.05
2922.15	3133.51
2919.82	3318.88
2917.48	3464.51
2915.14	3656.12
2912.8	3709.19
2910.46	3845.61
2908.12	3981.9
2905.77	4146.55
2903.43	4142.28
2901.08	4247.54
2898.73	4396.48
2896.38	4453.36
2894.04	4602.04
2891.68	4505.72
2889.33	4510.01
2886.98	4337.4
2884.62	4350.5
2882.27	4245.76
2879.91	4051.73
2877.55	4112.9
2875.2	3938.72
2872.83	3860.53
2870.47	3658.37
2868.11	3495.56
2865.75	3352.48
2863.38	3220.41
2861.02	3168.84
2858.65	3043.5
2856.28	2848.86
2853.91	2955.86
2851.54	2774.46
2849.17	2768.73
2846.79	2652.56
2844.42	2726.98
2842.04	2600.13
2839.67	2616.12
2837.29	2441.92
2834.91	2514.12
2832.53	2467.52
2830.14	2468.43
2827.76	2389.54
2825.38	2390.49
2822.99	2458.22
2820.61	2301.93
2818.22	2399.77
2815.83	2346.93
2813.44	2300.59
2811.05	2316.62
2808.65	2261.75
2806.26	2365.8
2803.87	2220.83
2801.47	2281.9
2799.07	2180
2796.67	2232.46
2794.27	2194.92
2791.87	2176.68
2789.47	2169.16
2787.06	2227.93
2784.66	2152
2782.25	2208.58
2779.85	2203.19
2777.44	2212.74
2775.03	2211.61
2772.62	2253.12
2770.21	2190.19
2767.79	2229.54
2765.38	2256.07
2762.96	2348.53
2760.54	2221.89
2758.12	2295.14
2755.71	2242.99
2753.29	2311.91
2750.86	2404.09
2748.44	2451.65
2746.01	2384.69
2743.59	2504.23
2741.16	2596.13
2738.73	2465.7
2736.3	2491.94
2733.87	2556.22
2731.44	2633.1
2729.01	2532.49
2726.57	2607.19
2724.14	2565.77
2721.7	2691
2719.26	2561.05
2716.82	2557.63
2714.38	2691.09
2711.94	2693.92
2709.5	2543.19
2707.05	2634.4
2704.61	2630.96
2702.16	2604.41
2699.71	2661.85
2697.26	2517.81
2694.81	2627.67
2692.36	2630.52
2689.91	2557.94
2687.45	2686.45
2685	2611.83
2682.54	2721.35
2680.08	2602.88
2677.62	2647.52
2675.16	2667.05
2672.7	2671.94
2670.24	2768.63
2667.77	2683.8
2665.31	2742.86
2662.84	2760.2
2660.37	2798.34
2657.9	2788.58
2655.43	2735.15
2652.96	2789.88
2650.49	2823.77
2648.01	2822.31
2645.53	2847.85
2643.06	2813.19
2640.58	2782.71
2638.1	2932.57
2635.62	2924.85
2633.14	2935.76
2630.65	3029.44
2628.17	3023.74
2625.68	2902.29
2623.19	3010.3
2620.7	2975.71
2618.21	3015.45
2615.72	3007.71
2613.23	3092.76
2610.74	3089.1
2608.24	3017.48
2605.75	3079.74
2603.25	3039.05
2600.75	3043.65
2598.25	3089.36
2595.75	3098.03
2593.24	3246.33
2590.74	3252.86
2588.23	3228.61
2585.73	3173.64
2583.22	3215.03
2580.71	3254.33
2578.2	3307.91
2575.69	3187.54
2573.17	3279.95
2570.66	3466.28
2568.14	3425.68
2565.62	3415.73
2563.11	3446.61
2560.59	3469.3
2558.07	3520.51
2555.54	3571.65
2553.02	3563.69
2550.5	3478.4
2547.97	3521.35
2545.44	3550.02
2542.91	3481.11
2540.38	3586.95
2537.85	3631.78
2535.32	3577.14
2532.78	3638.15
2530.25	3620.05
2527.71	3680.97
2525.17	3624.38
2522.63	3703.45
2520.09	3707.59
2517.55	3788.55
2515.01	3709.79
2512.46	3798.74
2509.92	3808.88
2507.37	3827.07
2504.82	3877.5
2502.27	3879.51
2499.72	3865.4
2497.16	3863.39
2494.61	3915.7
2492.05	4070.53
2489.5	3985.99
2486.94	4014.05
2484.38	3887.46
2481.82	4114.22
2479.26	4057.91
2476.69	4075.84
2474.13	4203.96
2471.56	4141.68
2469	4175.55
2466.43	4145.36
2463.86	4239.17
2461.29	4250.94
2458.71	4208.77
2456.14	4198.58
2453.56	4268.22
2450.99	4273.96
2448.41	4367.41
2445.83	4424.89
2443.25	4448.46
2440.67	4406.32
2438.08	4529.33
2435.5	4493.16
2432.91	4610.03
2430.32	4599.67
2427.73	4503.96
2425.14	4652.38
2422.55	4598.38
2419.96	4582.09
2417.36	4651
2414.77	4787.14
2412.17	4798.48
2409.57	4695.09
2406.97	5016.8
2404.37	4879.82
2401.77	4853.56
2399.16	4959.55
2396.56	4801.12
2393.95	4989.82
2391.34	5050.25
2388.73	5088.95
2386.12	5226.03
2383.51	5225.24
2380.9	5132.04
2378.28	5247.25
2375.66	5203.24
2373.05	5121.97
2370.43	5417.52
2367.81	5279.34
2365.18	5137.39
2362.56	5207.16
2359.94	5323.86
2357.31	5436.51
2354.68	5361.27
2352.05	5334.98
2349.42	5466.98
2346.79	5428.94
2344.16	5568.55
2341.52	5507.08
2338.89	5574.36
2336.25	5783.83
2333.61	5716.49
2330.97	5657.02
2328.33	5739.63
2325.69	5771.59
2323.04	5854.06
2320.4	5748
2317.75	5828.44
2315.1	5887.45
2312.45	5923.12
2309.8	6018.84
2307.15	5951.71
2304.5	5979.54
2301.84	5945.4
2299.18	6106.66
2296.52	6012.56
2293.86	6019.03
2291.2	6305.52
2288.54	6157.4
2285.88	6298.82
2283.21	6359.1
2280.54	6492.55
2277.88	6319.6
2275.21	6522.22
2272.54	6345.59
2269.86	6463.36
2267.19	6644.44
2264.51	6517.96
2261.84	6527.93
2259.16	6560.91
2256.48	6691.67
2253.8	6841.46
2251.12	6843.56
2248.43	6874.38
2245.75	6926.22
2243.06	6744.63
2240.37	7031.63
2237.68	7020.23
2234.99	7005.03
2232.3	7144.45
2229.6	7010.91
2226.91	7152.07
2224.21	7094.89
2221.51	7245.38
2218.81	7256.74
2216.11	7203.39
2213.41	7279.41
2210.71	7347.74
2208	7516.67
2205.29	7366.46
2202.59	7451.7
2199.88	7451.5
2197.17	7362.21
2194.45	7496.57
2191.74	7644.03
2189.02	7738.34
2186.3	7792.83
2183.59	7841.59
2180.87	7846.83
2178.14	7908.72
2175.42	7961.09
2172.7	7881.37
2169.97	8027.97
2167.24	8083.96
2164.52	7991.1
2161.79	8176.92
2159.05	8157.48
2156.32	8230.19
2153.59	8423.09
2150.85	8384.75
2148.11	8357.72
2145.37	8375.74
2142.63	8412.49
2139.89	8426.7
2137.15	8467.12
2134.4	8659.15
2131.66	8588.99
2128.91	8689.1
2126.16	8774.14
2123.41	8868.42
2120.65	8798.29
2117.9	8814.08
2115.15	8952.94
2112.39	9020.81
2109.63	8881.8
2106.87	8916.11
2104.11	9034.13
2101.35	9157.61
2098.58	9245.62
2095.82	9301.94
2093.05	9163.2
2090.28	9466.37
2087.51	9387.04
2084.74	9335.61
2081.96	9345.39
2079.19	9432.94
2076.41	9527.79
2073.64	9624.39
2070.86	9593.29
2068.08	9704.53
2065.29	9745.45
2062.51	9991.24
2059.72	9950.77
2056.94	9812.6
2054.15	9956.57
2051.36	10080.1
2048.57	10157.5
2045.77	10048.9
2042.98	10131.8
2040.18	10028.8
2037.39	10284.3
2034.59	10229.1
2031.79	10361.2
2028.99	10460.1
2026.18	10547.9
2023.38	10307.7
2020.57	10294.7
2017.76	10580.1
2014.95	10616.4
2012.14	10674.6
2009.33	10725.5
2006.51	10958.9
2003.7	11270.5
2000.88	11065.5
1998.06	11167
1995.24	11073.5
1992.42	11178.5
1989.6	11259.8
1986.77	11288.2
1983.95	11578.4
1981.12	11365
1978.29	11520.4
1975.46	11514.1
1972.62	11627.6
1969.79	11652
1966.95	11828.7
1964.12	12113.9
1961.28	11973.3
1958.44	12048.1
1955.59	11925.8
1952.75	12107.3
1949.91	12207.2
1947.06	12350.4
1944.21	12403.2
1941.36	12398.2
1938.51	12519.3
1935.66	12492.7
1932.8	12550.6
1929.95	12707.5
1927.09	12639.4
1924.23	12697.2
1921.37	12828.5
1918.51	13135.7
1915.64	13092.6
1912.78	13207.4
1909.91	13248.5
1907.04	13386.3
1904.17	13389.7
1901.3	13502.3
1898.42	13409
1895.55	13678.7
1892.67	13719.4
1889.8	13686.9
1886.92	13759.7
1884.03	13798.5
1881.15	14042.2
1878.27	14039.8
1875.38	13987.6
1872.49	14116.9
1869.6	14304.8
1866.71	14382.2
1863.82	14454.3
1860.93	14336.2
1858.03	14615.8
1855.13	14614.8
1852.24	14651.1
1849.33	14793.6
1846.43	14982
1843.53	14895.9
1840.62	14862.9
1837.72	15266.6
1834.81	15184
1831.9	15376.9
1828.99	15311.9
1826.07	15377.5
1823.16	15432.5
1820.24	15734.1
1817.32	15579.2
1814.4	15818.8
1811.48	15887.4
1808.56	15790.7
1805.63	15989.3
1802.71	16189.4
1799.78	16038.3
1796.85	16404.8
1793.92	16511.4
1790.99	16444.4
1788.05	16536.9
1785.12	16687
1782.18	16667.3
1779.24	17039.2
1776.3	16802.5
1773.36	16719.8
1770.41	17071.9
1767.47	17359
1764.52	17239.5
1761.57	17459.9
1758.62	17451.9
1755.67	17478.8
1752.71	17733.5
1749.76	17850.6
1746.8	18077
1743.84	17743.8
1740.88	18251.2
1737.92	18220.3
1734.96	18444.2
1731.99	18437.4
1729.02	18756.2
1726.05	18634.9
1723.08	18821.7
1720.11	18857.9
1717.14	18814.6
1714.16	19006.1
1711.18	19313.1
1708.21	18843.4
1705.22	19098.4
1702.24	19082.6
1699.26	19385.4
1696.27	19684.4
1693.29	19611.5
1690.3	19868.7
1687.31	19919.5
1684.31	19925.5
1681.32	20247.4
1678.33	20215.4
1675.33	20403
1672.33	20477.3
1669.33	20217.4
1666.33	20517.6
1663.32	20586.5
1660.32	20694.7
1657.31	20946.2
1654.3	21055.7
1651.29	21124.2
1648.28	21112.3
1645.26	21105.5
1642.25	21315.2
1639.23	21124.4
1636.21	21638.5
1633.19	21439.2
1630.17	21534.3
1627.14	21688.7
1624.12	21837.8
1621.09	22019
1618.06	21949
1615.03	21892.5
1612	22332.6
1608.96	22570.7
1605.93	22486.9
1602.89	22907.3
1599.85	22667.8
1596.81	22580.7
1593.76	22819.6
1590.72	22899.5
1587.67	22933.8
1584.62	23032.2
1581.57	23130.4
1578.52	23169.5
1575.47	23318
1572.41	23240.9
1569.36	23557.3
1566.3	23515.4
1563.24	23653.2
1560.18	23738.8
1557.11	23658.3
1554.05	23673.4
1550.98	23591.3
1547.91	23876
1544.84	23962.9
1541.77	23895.8
1538.69	23989.3
1535.62	24461.9
1532.54	24501.4
1529.46	24369
1526.38	24313.5
1523.29	24333
1520.21	24799
1517.12	24833.2
1514.04	24795.8
1510.95	24667
1507.85	25063.6
1504.76	24933
1501.67	25202.8
1498.57	25110.4
1495.47	25203.9
1492.37	25816.2
1489.27	26121.2
1486.16	26391.1
1483.06	27244.8
1479.95	27684
1476.84	28124.4
1473.73	28123.3
1470.62	28239.3
1467.5	28446
1464.38	28494.1
1461.27	28390.4
1458.15	28431.9
1455.02	28308.7
1451.9	28144.4
1448.78	28103.7
1445.65	28202.7
1442.52	27876.1
1439.39	28300.1
1436.26	28633.4
1433.12	28441.6
1429.99	28649.8
1426.85	29322.9
1423.71	29095
1420.57	29649.2
1417.42	29947.8
1414.28	30213.4
1411.13	30560.2
1407.98	30572.1
1404.83	30435.5
1401.68	30493
1398.53	30640.1
1395.37	31381.4
1392.21	32029
1389.05	32827.2
1385.89	33990.1
1382.73	35291.5
1379.56	36154.5
1376.4	36249
1373.23	35308.5
1370.06	34476.1
1366.88	34211.7
1363.71	33620.5
1360.53	32979.7
1357.36	32718.2
1354.18	32558.7
1350.99	32690.2
1347.81	32708.5
1344.63	33393.2
1341.44	34162.5
1338.25	34397.4
1335.06	34498.4
1331.87	34277.3
1328.67	33774.8
1325.48	33477.2
1322.28	32770.1
1319.08	32532.7
1315.88	32403.2
1312.67	32443.8
1309.47	32136.5
1306.26	31909.6
1303.05	31892.7
1299.84	32051.9
1296.63	32562.9
1293.41	32889.3
1290.2	32942.2
1286.98	32440.9
1283.76	32171.6
1280.54	31867.4
1277.31	32376.6
1274.09	32627.1
1270.86	32321.6
1267.63	32399.9
1264.4	32295.2
1261.16	32448.1
1257.93	32065.5
1254.69	31819.9
1251.45	31972.8
1248.21	31860.7
1244.97	31762.9
1241.72	31592.4
1238.48	31235.3
1235.23	31217.1
1231.98	31285.9
1228.73	31130.3
1225.47	31014.2
1222.22	30543.2
1218.96	30135.8
1215.7	30066.2
1212.44	30233
1209.17	30399.7
1205.91	30284.4
1202.64	30397.3
1199.37	30505.3
1196.1	30328.8
1192.83	30377.1
1189.55	30254.2
1186.27	30501.6
1183	30907
1179.71	31203.8
1176.43	30953.9
1173.15	31422.4
1169.86	31566.6
1166.57	32029.5
1163.28	32793.3
1159.99	33203.4
1156.69	34642.6
1153.4	35612.4
1150.1	36565.4
1146.8	36123.6
1143.5	35532.8
1140.19	35373.5
1136.89	35769.4
1133.58	36912.1
1130.27	39193.2
1126.96	41498
1123.65	43700.8
1120.33	44791.2
1117.01	44636.3
1113.69	43315.8
1110.37	42592.5
1107.05	41508.2
1103.72	42190.1
1100.4	45271.5
1097.07	48911.1
1093.74	49533.3
1090.4	46583.9
1087.07	42738.1
1083.73	40335.1
1080.39	38204.3
1077.05	36749.7
1073.71	35908.6
1070.36	35819.9
1067.01	36023
1063.67	35480
1060.31	35863.9
1056.96	35769.2
1053.61	35519.8
1050.25	34885
1046.89	34100.9
1043.53	33829.9
1040.17	33736.6
1036.8	33829.7
1033.44	33652.5
1030.07	33264.9
1026.7	33048.6
1023.32	32559.7
1019.95	32371.4
1016.57	32370.5
1013.19	32135.3
1009.81	31857.9
1006.43	31747.9
1003.05	32207.3
999.659	32655.6
996.271	32668.1
992.879	32576
989.486	32303.7
986.092	32059
982.695	31785.8
979.296	31543.1
975.896	31577.3
972.492	32242.7
969.088	32700.5
965.681	32314.5
962.271	32099.3
958.86	31943.1
955.447	31320.3
952.032	31145.2
948.615	31531.2
945.196	31229.8
941.775	31543.2
938.353	31386.3
934.927	31519.2
931.5	31744.8
928.07	31737.9
924.639	31683
921.206	32306.3
917.771	32472.5
914.333	33048.1
910.894	33168.9
907.451	33668.7
904.008	33760.5
900.562	34256.4
897.114	34413.3
893.665	34717.5
890.213	34104.2
886.759	33823.4
883.303	33079
879.845	32848.2
876.385	32515.2
872.922	32397.7
869.458	32409.5
865.991	32329.3
862.523	32413.6
859.053	32561.5
855.58	32321.5
852.105	32373.1
848.628	32514.8
845.149	32521.9
841.668	32728.3
838.186	32478.4
834.7	32817.3
831.213	32601.5
827.724	33004.7
824.232	32808.2
820.738	32845.8
817.243	33273
813.745	32962.1
810.245	33209.5
806.743	32948.8
803.239	33330.9
799.733	33274.1
796.225	33468
792.714	33204.8
789.202	33764.2
785.688	33540.6
782.17	33562.7
778.651	33878.4
775.131	33767.4
771.607	33958.6
768.082	33959.9
764.555	34093.9
761.025	34341.2
757.493	34361.2
753.96	34305.5
750.424	34279
746.886	34413.7
743.346	34356.5
739.803	34459.1
736.259	34555.7
732.712	34610.1
729.163	34971.4
725.612	35048.7
722.059	35108.4
718.504	35133.4
714.946	35055.8
711.387	35378.1
707.825	35020.5
704.261	35343.9
700.695	35459.3
697.127	35177.1
693.557	35384.6
689.983	35835
686.409	35787.3
682.832	35608.9
679.253	35598.8
675.672	35943.1
672.088	36038.8
668.503	36211.8
664.915	36241.3
661.324	36647.3
657.732	36706.5
654.138	36512.6
650.542	36694.7
646.942	37063.6
643.342	37095.2
639.738	37377.8
636.134	37373.6
632.525	37379.3
628.916	37564.3
625.304	37776.1
621.689	37767.3
618.073	38191.9
614.455	38299.2
610.834	38365.2
607.211	38547.4
603.586	38611.7
599.958	38440.8
596.329	38662.2
592.696	38566.4
589.062	38815.7
585.427	38728.3
581.788	38956
578.146	38947.7
574.504	39469.7
570.858	39494.9
567.211	39603.1
563.562	39474.6
559.909	39612.2
556.255	39278.5
552.599	39386.5
548.939	39310.3
545.279	39369
541.615	39483.7
537.95	39351.5
534.282	39795.3
530.612	39898.2
526.94	40356.5
523.266	41762.4
519.589	43098.1
515.91	42715.4
512.229	41766.3
508.545	41546.6
504.859	41541.9
501.171	41425.8
497.48	41890.4
493.788	42444.9
490.093	42600.9
486.396	42446.7
482.696	42442.8
478.994	42087.5
475.29	41963
471.584	41890
467.875	42476.6
464.164	43403.1
460.451	45518.7
456.735	46316.3
453.018	46109.3
449.297	45707.8
445.575	45171.4
441.85	45965.8
438.123	47503.7
434.394	48211.5
430.662	46837.5
426.928	45734.9
423.191	44830.4
419.453	44104.3
415.712	44092
411.969	43523.7
408.223	43827.4
404.475	43461.5
400.725	43511.2
396.972	43473.2
393.217	43865
389.46	45055
385.7	47610.5
381.938	50777.5
378.174	52365.1
374.407	50927.2
370.638	48349.8
366.866	46649
363.093	46444.2
359.316	46594.9
355.538	46916.8
351.758	47245
347.975	47635.3
344.189	46944.5
340.401	45970.9
336.611	45416.1
332.818	45021.8
329.023	45316
325.226	44833
321.426	44061
317.624	43694.2
313.819	43356.2
310.013	42953.8
306.203	43242.6
302.392	42705.9
298.578	42107.8
294.762	41528
290.942	41184.4
287.121	41129
283.298	40400.2
279.472	40372.2
275.644	40532.1
271.812	40084.1
267.979	40067
264.144	40037.8
260.306	40648.7
256.466	40473.3
252.623	40544.2
248.777	40514.7
244.93	40348.9
241.08	40123.3
237.228	40012.7
233.372	39840.9
229.515	39645.3
225.655	39517.8
221.793	39252.1
217.928	38945.4
214.061	38890.3
210.191	38832.6
206.319	38878.5
202.445	39140.4
198.568	38616
194.688	39087.1
190.807	38984.3
186.923	39178
183.036	39457.3
179.146	39544.7
175.255	39827.4
171.361	39915.8
167.465	39686.1
163.565	39439.5
159.664	38547.8
155.76	38693.2
151.854	38342.5
147.945	38512.8
144.033	38933.8
140.12	39639.2
136.203	39062.9
132.284	38887.3
128.363	39212.6
124.439	39358
120.514	39753.1
116.584	39607.6
112.653	38042.5
108.72	34227
104.783	28990.7
100.845	22316.7