File: Part 6 Raman Spectroscopy/Raman data/Microcellulose_baseline_corrected.txt
#Wave		#Intensity
3112.1	-74.3055
3109.85	-44.9209
3107.61	-30.5569
3105.37	-12.829
3103.12	19.742
3100.88	-40.3461
3098.63	-28.2973
3096.38	0.969546
3094.13	33.7596
3091.88	-12.0847
3089.62	14.1882
3087.37	16.7137
3085.12	57.1082
3082.86	12.3098
3080.6	14.561
3078.35	56.9936
3076.09	28.0981
3073.83	41.7072
3071.57	27.3255
3069.3	50.9062
3067.04	80.6263
3064.78	18.9179
3062.51	17.9215
3060.24	2.753533
3057.97	25.5759
3055.71	50.1235
3053.44	8.492825
3051.16	-40.3601
3048.89	12.1602
3046.62	-10.4089
3044.34	-24.324
3042.07	-34.0988
3039.79	-3.610734
3037.51	-11.8564
3035.23	-6.891423
3032.95	-2.250724
3030.67	-103.792
3028.39	-50.1492
3026.11	7.673417
3023.82	8.965425
3021.54	-68.6676
3019.25	-31.8369
3016.96	-31.1787
3014.67	-3.774941
3012.38	-19.1954
3010.09	-3.368548
3007.79	-3.393570
3005.5	-66.2828
3003.21	-3.829975
3000.91	38.3082
2998.61	-36.0269
2996.31	46.1485
2994.01	14.1827
2991.71	113.973
2989.41	162.257
2987.11	172.505
2984.8	211.707
2982.5	246.376
2980.19	238.655
2977.88	293.287
2975.58	403.509
2973.27	533.64
2970.96	514.669
2968.64	631.306
2966.33	630.11
2964.01	675.573
2961.7	632.247
2959.38	684.394
2957.06	703.272
2954.74	693.374
2952.42	867.376
2950.1	864.163
2947.78	938.455
2945.46	968.516
2943.13	1007.45
2940.8	1077.36
2938.48	1039.07
2936.15	1263.54
2933.82	1234.19
2931.49	1335.04
2929.16	1323.48
2926.82	1514.67
2924.49	1578.07
2922.15	1595.29
2919.82	1766.54
2917.48	1898.15
2915.14	2075.87
2912.8	2115.15
2910.46	2237.91
2908.12	2360.64
2905.77	2511.86
2903.43	2494.27
2901.08	2586.32
2898.73	2722.17
2896.38	2766.07
2894.04	2901.9
2891.68	2792.83
2889.33	2784.5
2886.98	2599.36
2884.62	2600.05
2882.27	2483.03
2879.91	2276.81
2877.55	2325.9
2875.2	2139.77
2872.83	2049.72
2870.47	1835.8
2868.11	1661.34
2865.75	1506.71
2863.38	1363.19
2861.02	1300.25
2858.65	1163.66
2856.28	957.852
2853.91	1053.77
2851.54	861.386
2849.17	844.754
2846.79	717.778
2844.42	781.452
2842.04	643.955
2839.67	649.359
2837.29	464.654
2834.91	526.421
2832.53	469.448
2830.14	460.058
2827.76	370.935
2825.38	361.706
2822.99	419.317
2820.61	252.965
2818.22	340.79
2815.83	277.977
2813.44	221.717
2811.05	227.864
2808.65	163.152
2806.26	257.393
2803.87	102.659
2801.47	153.985
2799.07	42.3656
2796.67	85.1267
2794.27	37.9207
2791.87	10.0288
2789.47	-7.134423
2787.06	41.9991
2784.66	-43.549
2782.25	3.410032
2779.85	-11.5984
2777.44	-11.6701
2775.03	-22.4164
2772.62	9.459397
2770.21	-63.1148
2767.79	-33.4293
2765.38	-16.5675
2762.96	66.1891
2760.54	-70.1713
2758.12	-6.671802
2755.71	-68.5909
2753.29	-9.485056
2750.86	72.856
2748.44	110.523
2746.01	33.6359
2743.59	143.213
2741.16	225.091
2738.73	84.5954
2736.3	100.715
2733.87	154.81
2731.44	221.455
2729.01	110.543
2726.57	174.885
2724.14	123.032
2721.7	237.754
2719.26	97.2299
2716.82	83.1656
2714.38	205.894
2711.94	197.922
2709.5	36.3023
2707.05	116.536
2704.61	102.026
2702.16	64.3215
2699.71	110.522
2697.26	-44.8555
2694.81	53.5625
2692.36	44.8718
2689.91	-39.3413
2687.45	77.4295
2685	-9.044100
2682.54	88.5246
2680.08	-42.0112
2677.62	-9.548336
2675.16	-2.311451
2672.7	-9.822224
2670.24	74.3413
2667.77	-23.1305
2665.31	23.1718
2662.84	27.6229
2660.37	52.7582
2657.9	29.8602
2655.43	-36.8343
2652.96	4.494840
2650.49	24.8648
2648.01	9.752483
2645.53	21.4983
2643.06	-27.0863
2640.58	-71.6236
2638.1	64.0399
2635.62	41.9775
2633.14	38.4224
2630.65	117.476
2628.17	97.0221
2625.68	-39.3351
2623.19	53.6253
2620.7	3.836789
2618.21	28.2409
2615.72	5.010820
2613.23	74.424
2610.74	54.9819
2608.24	-32.5762
2605.75	13.6022
2603.25	-43.3199
2600.75	-55.1076
2598.25	-25.9426
2595.75	-33.9629
2593.24	97.4818
2590.74	87.0127
2588.23	45.608
2585.73	-26.6783
2583.22	-2.755499
2580.71	18.9147
2578.2	54.7174
2575.69	-83.5942
2573.17	-9.279258
2570.66	158.798
2568.14	99.7821
2565.62	71.269
2563.11	83.429
2560.59	87.2271
2558.07	119.39
2555.54	151.336
2553.02	124.009
2550.5	19.1961
2547.97	42.4671
2545.44	51.2958
2542.91	-37.5993
2540.38	48.0884
2537.85	72.5991
2535.32	-2.507400
2532.78	37.8636
2530.25	-1.026873
2527.71	38.9448
2525.17	-38.7411
2522.63	19.0661
2520.09	1.787595
2517.55	61.1712
2515.01	-39.3194
2512.46	27.7382
2509.92	15.8272
2507.37	11.8128
2504.82	39.8955
2502.27	19.387
2499.72	-17.3915
2497.16	-42.2291
2494.61	-12.8885
2492.05	118.804
2489.5	10.9831
2486.94	15.605
2484.38	-134.577
2481.82	68.4421
2479.26	-11.7647
2476.69	-17.8836
2474.13	86.0378
2471.56	-0.593433
2469	8.772798
2466.43	-46.0745
2463.86	22.9373
2461.29	9.762966
2458.71	-57.5039
2456.14	-92.9392
2453.56	-48.7018
2450.99	-68.5039
2448.41	-0.749778
2445.83	30.9004
2443.25	28.4851
2440.67	-39.776
2438.08	56.9542
2435.5	-5.637037
2432.91	84.6718
2430.32	47.5995
2427.73	-74.9693
2425.14	46.4577
2422.55	-34.6799
2419.96	-78.2569
2417.36	-36.7704
2414.77	71.7952
2412.17	55.427
2409.57	-75.8106
2406.97	217.896
2404.37	52.7871
2401.77	-1.749082
2399.16	75.8217
2396.56	-111.176
2393.95	48.8368
2391.34	80.4231
2388.73	90.144
2386.12	198.094
2383.51	168.049
2380.9	45.4399
2378.28	131.12
2375.66	57.4176
2373.05	-53.6654
2370.43	211.923
2367.81	43.6427
2365.18	-128.549
2362.56	-89.1511
2359.94	-2.982488
2357.31	79.0112
2354.68	-27.0346
2352.05	-84.2654
2349.42	16.6581
2346.79	-52.606
2344.16	55.6481
2341.52	-37.3274
2338.89	-1.692534
2336.25	175.977
2333.61	76.7128
2330.97	-14.8337
2328.33	35.5618
2325.69	35.1699
2323.04	85.1239
2320.4	-53.5781
2317.75	-5.936182
2315.1	20.1323
2312.45	22.7217
2309.8	85.2087
2307.15	-15.2924
2304.5	-20.9967
2301.84	-88.8076
2299.18	38.6255
2296.52	-89.4548
2293.86	-117.118
2291.2	135.095
2288.54	-47.4461
2285.88	59.3865
2283.21	84.9346
2280.54	183.485
2277.88	-24.5257
2275.21	142.9
2272.54	-69.0998
2269.86	13.1452
2267.19	158.535
2264.51	-3.800231
2261.84	-29.8415
2259.16	-33.0265
2256.48	61.3935
2253.8	174.68
2251.12	140.105
2248.43	134.073
2245.75	148.906
2243.06	-69.8766
2240.37	179.772
2237.68	130.847
2234.99	77.9279
2232.3	179.46
2229.6	7.848841
2226.91	110.77
2224.21	15.1697
2221.51	127.032
2218.81	99.5996
2216.11	7.268041
2213.41	44.119
2210.71	73.0854
2208	202.454
2205.29	12.4931
2202.59	57.7979
2199.88	17.4591
2197.17	-112.164
2194.45	-18.3511
2191.74	88.359
2189.02	141.736
2186.3	155.058
2183.59	162.462
2180.87	126.12
2178.14	146.217
2175.42	156.6
2172.7	34.6519
2169.97	138.821
2167.24	152.152
2164.52	16.4188
2161.79	159.137
2159.05	96.3683
2156.32	125.516
2153.59	274.635
2150.85	192.272
2148.11	120.982
2145.37	94.5033
2142.63	86.5229
2139.89	55.7588
2137.15	50.9499
2134.4	197.508
2131.66	81.6425
2128.91	135.782
2126.16	174.61
2123.41	222.422
2120.65	105.549
2117.9	74.3417
2115.15	165.964
2112.39	186.321
2109.63	-0.485457
2106.87	-14.2238
2104.11	55.488
2101.35	130.351
2098.58	169.503
2095.82	176.683
2093.05	-11.4919
2090.28	241.971
2087.51	112.648
2084.74	10.9427
2081.96	-29.8539
2079.19	6.824516
2076.41	50.526
2073.64	95.684
2070.86	12.8389
2068.08	72.0205
2065.29	60.5947
2062.51	253.746
2059.72	160.3
2056.94	-31.1257
2054.15	59.2559
2051.36	128.929
2048.57	152.095
2045.77	-10.9874
2042.98	17.0062
2040.18	-141.077
2037.39	58.8591
2034.59	-52.1079
2031.79	23.8291
2028.99	66.2866
2026.18	97.2947
2023.38	-200.073
2020.57	-270.465
2017.76	-42.8748
2014.95	-64.6923
2012.14	-64.9438
2009.33	-72.9414
2006.51	101.307
2003.7	353.407
2000.88	88.5834
1998.06	129.939
1995.24	-24.153
1992.42	20.0047
1989.6	40.0396
1986.77	6.861998
1983.95	235.13
1981.12	-40.6601
1978.29	52.1082
1975.46	-17.2005
1972.62	32.8647
1969.79	-6.396201
1966.95	106.171
1964.12	326.868
1961.28	121.457
1958.44	131.128
1955.59	-56.7463
1952.75	58.7642
1949.91	92.4096
1947.06	168.914
1944.21	154.686
1941.36	82.2853
1938.51	135.719
1935.66	40.8991
1932.8	30.3663
1929.95	118.377
1927.09	-18.9966
1924.23	-30.8368
1921.37	30.554
1918.51	267.371
1915.64	153.54
1912.78	197.223
1909.91	166.903
1907.04	232.918
1904.17	164.082
1901.3	204.069
1898.42	37.8376
1895.55	234.232
1892.67	201.286
1889.8	94.7012
1886.92	93.0651
1884.03	57.0775
1881.15	225.702
1878.27	147.829
1875.38	19.6959
1872.49	72.8022
1869.6	184.116
1866.71	184.599
1863.82	179.345
1860.93	-16.3985
1858.03	185.209
1855.13	105.87
1852.24	63.4209
1849.33	126.883
1846.43	235.867
1843.53	69.9672
1840.62	-43.1264
1837.72	280.153
1834.81	116.73
1831.9	228.547
1828.99	82.102
1826.07	65.9518
1823.16	38.8055
1820.24	257.982
1817.32	20.3468
1814.4	176.827
1811.48	162.065
1808.56	-18.3495
1805.63	96.2356
1802.71	212.061
1799.78	-23.7174
1796.85	257.884
1793.92	279.294
1790.99	126.792
1788.05	133.434
1785.12	197.437
1782.18	91.3051
1779.24	376.565
1776.3	53.0073
1773.36	-116.874
1770.41	147.706
1767.47	347.094
1764.52	139.592
1761.57	271.804
1758.62	175.375
1755.67	113.507
1752.71	279.268
1749.76	307.13
1746.8	444.13
1743.84	21.3681
1740.88	438.917
1737.92	317.876
1734.96	451.537
1731.99	354.241
1729.02	582.394
1726.05	370.294
1723.08	466.085
1720.11	411.07
1717.14	276.299
1714.16	376.324
1711.18	591.646
1708.21	30.0512
1705.22	193.058
1702.24	85.0883
1699.26	295.595
1696.27	502.205
1693.29	336.725
1690.3	501.368
1687.31	459.344
1684.31	372.521
1681.32	601.465
1678.33	476.494
1675.33	570.971
1672.33	552.043
1669.33	198.993
1666.33	405.888
1663.32	381.446
1660.32	396.224
1657.31	554.35
1654.3	570.418
1651.29	545.359
1648.28	440.01
1645.26	339.799
1642.25	456.007
1639.23	171.731
1636.21	592.386
1633.19	299.682
1630.17	301.37
1627.14	362.458
1624.12	418.312
1621.09	506.323
1618.06	343.106
1615.03	193.594
1612	540.721
1608.96	685.92
1605.93	509.336
1602.89	837.066
1599.85	505.035
1596.81	325.499
1593.76	472.129
1590.72	459.956
1587.67	402.288
1584.62	408.823
1581.57	415.405
1578.52	363.099
1575.47	420.326
1572.41	252.187
1569.36	477.704
1566.3	345.198
1563.24	392.664
1560.18	388.136
1557.11	217.703
1554.05	143.159
1550.98	-28.3375
1547.91	167.249
1544.84	165.315
1541.77	9.643834
1538.69	14.8457
1535.62	399.527
1532.54	351.46
1529.46	131.792
1526.38	-10.7119
1523.29	-77.7823
1520.21	301.99
1517.12	250.291
1514.04	127.376
1510.95	-86.6089
1507.85	225.198
1504.76	10.2989
1501.67	196.089
1498.57	20.2428
1495.47	30.6561
1492.37	560.191
1489.27	782.982
1486.16	971.118
1483.06	1743.47
1479.95	2101.89
1476.84	2461.92
1473.73	2380.85
1470.62	2417.51
1467.5	2545.24
1464.38	2514.94
1461.27	2333.45
1458.15	2297.55
1455.02	2097.48
1451.9	1856.97
1448.78	1740.48
1445.65	1764.29
1442.52	1363.13
1439.39	1713.08
1436.26	1972.87
1433.12	1708.17
1429.99	1844.1
1426.85	2445.52
1423.71	2146.5
1420.57	2630.29
1417.42	2858.99
1414.28	3055.3
1411.13	3333.56
1407.98	3277.46
1404.83	3073.54
1401.68	3064.4
1398.53	3145.46
1395.37	3821.36
1392.21	4404.3
1389.05	5138.43
1385.89	6238.08
1382.73	7476.78
1379.56	8277.85
1376.4	8311.02
1373.23	7309.98
1370.06	6417.7
1366.88	6094.08
1363.71	5444.4
1360.53	4745.92
1357.36	4427.32
1354.18	4211.55
1350.99	4287.44
1347.81	4250.89
1344.63	4881.39
1341.44	5597.31
1338.25	5779.58
1335.06	5828.63
1331.87	5556.32
1328.67	5003.45
1325.48	4656.08
1322.28	3900
1319.08	3614.46
1315.88	3437.44
1312.67	3431.38
1309.47	3078.06
1306.26	2805.97
1303.05	2744.67
1299.84	2860.17
1296.63	3328.13
1293.41	3612.38
1290.2	3623.78
1286.98	3081.75
1283.76	2772.44
1280.54	2429.07
1277.31	2899.76
1274.09	3112.49
1270.86	2769.98
1267.63	2812.03
1264.4	2671.83
1261.16	2789.95
1257.93	2373.28
1254.69	2094.29
1251.45	2214.55
1248.21	2070.5
1244.97	1941.55
1241.72	1740.54
1238.48	1353.63
1235.23	1306.37
1231.98	1346.77
1228.73	1163.38
1225.47	1020.31
1222.22	522.907
1218.96	89.7992
1215.7	-4.816961
1212.44	137.638
1209.17	280.538
1205.91	142.153
1202.64	232.584
1199.37	318.775
1196.1	121.082
1192.83	148.713
1189.55	5.831767
1186.27	233.777
1183	620.307
1179.71	898.825
1176.43	631.171
1173.15	1082.5
1169.86	1210.12
1166.57	1656.89
1163.28	2405.06
1159.99	2800.05
1156.69	4224.67
1153.4	5180.33
1150.1	6119.72
1146.8	5664.63
1143.5	5061.07
1140.19	4889.49
1136.89	5273.48
1133.58	6404.69
1130.27	8674.67
1126.96	10968.7
1123.65	13161.1
1120.33	14241.5
1117.01	14076.9
1113.69	12747
1110.37	12014.6
1107.05	10921.5
1103.72	11594.9
1100.4	14667.9
1097.07	18299.5
1093.74	18913.9
1090.4	15956.9
1087.07	12103.6
1083.73	9693.34
1080.39	7555.41
1077.05	6093.84
1073.71	5245.94
1070.36	5150.41
1067.01	5346.79
1063.67	4797.16
1060.31	5174.55
1056.96	5073.27
1053.61	4817.35
1050.25	4175.9
1046.89	3385.2
1043.53	3107.62
1040.17	3007.56
1036.8	3093.84
1033.44	2909.69
1030.07	2515.08
1026.7	2291.52
1023.32	1795.28
1019.95	1599.41
1016.57	1590.73
1013.19	1347.57
1009.81	1061.85
1006.43	943.282
1003.05	1393.92
999.659	1833.06
996.271	1836.07
992.879	1734.1
989.486	1451.6
986.092	1196.25
982.695	912.018
979.296	657.889
975.896	680.118
972.492	1333.1
969.088	1777.99
965.681	1378.55
962.271	1149.37
958.86	978.629
955.447	340.675
952.032	149.793
948.615	519.468
945.196	201.106
941.775	496.82
938.353	321.549
934.927	435.318
931.5	641.16
928.07	613.681
924.639	537.501
921.206	1138.66
917.771	1281.98
914.333	1833.92
910.894	1930.08
907.451	2404.5
904.008	2470.02
900.562	2938.72
897.114	3067.51
893.665	3342.66
890.213	2699.36
886.759	2387.62
883.303	1611.27
879.845	1347.51
876.385	980.517
872.922	828.099
869.458	803.837
865.991	686.557
862.523	732.764
859.053	841.432
855.58	561.07
852.105	571.238
848.628	670.359
845.149	633.742
841.668	795.25
838.186	499.425
834.7	791.069
831.213	526.996
827.724	880.57
824.232	633.367
820.738	619.061
817.243	993.101
813.745	627.793
810.245	819.615
806.743	502.132
803.239	826.101
799.733	710.096
796.225	843.38
792.714	518.406
789.202	1014.77
785.688	726.894
782.17	683.509
778.651	932.411
775.131	753.469
771.607	875.337
768.082	806.201
764.555	868.393
761.025	1042.75
757.493	988.532
753.96	857.451
750.424	754.26
746.886	811.108
743.346	674.965
739.803	697.25
736.259	712.442
732.712	684.295
729.163	961.925
725.612	954.296
722.059	928.055
718.504	865.952
714.946	700.118
711.387	933.214
707.825	485.244
704.261	717.269
700.695	740.372
697.127	364.791
693.557	477.96
689.983	833.006
686.409	689.167
682.832	413.706
679.253	305.583
675.672	551.069
672.088	547.181
668.503	619.807
664.915	548.195
661.324	852.286
657.732	808.997
654.138	511.878
650.542	590.205
646.942	854.747
643.342	781.507
639.738	958.721
636.134	848.644
632.525	748.064
628.916	826.508
625.304	931.396
621.689	815.335
618.073	1132.47
614.455	1132.18
610.834	1090.42
607.211	1164.79
603.586	1121.24
599.958	842.391
596.329	956.042
592.696	752.509
589.062	894.342
585.427	699.725
581.788	820.433
578.146	705.441
574.504	1121.3
570.858	1040.68
567.211	1043.68
563.562	810.554
559.909	844.16
556.255	407.165
552.599	412.67
548.939	234.832
545.279	192.77
541.615	207.656
537.95	-23.3112
534.282	322.838
530.612	329.319
526.94	692.363
523.266	2004.37
519.589	3247.51
515.91	2773.67
512.229	1734.98
508.545	1427.31
504.859	1336.27
501.171	1135.44
497.48	1517.25
493.788	1990.78
490.093	2067.74
486.396	1836.52
482.696	1757.57
478.994	1329.49
475.29	1134.36
471.584	992.935
467.875	1513.52
464.164	2376.44
460.451	4430.93
456.735	5169.92
453.018	4906.97
449.297	4452.11
445.575	3865.18
441.85	4611.72
438.123	6104.71
434.394	6770.47
430.662	5357.4
426.928	4218.77
423.191	3281.24
419.453	2525.25
415.712	2486.29
411.969	1894.5
408.223	2177.89
404.475	1795.04
400.725	1831.16
396.972	1782.92
393.217	2167.86
389.46	3354.5
385.7	5910.02
381.938	9080.56
378.174	10675.1
374.407	9247.72
370.638	6684.29
366.866	5001.06
363.093	4817.36
359.316	4992.63
355.538	5342.56
351.758	5702.35
347.975	6127.66
344.189	5475.23
340.401	4543.49
336.611	4033.92
332.818	3688.24
329.023	4034.23
325.226	3606.21
321.426	2892.46
317.624	2586.85
313.819	2313.04
310.013	1977.7
306.203	2336.4
302.392	1872.23
298.578	1349.28
294.762	846.992
290.942	583.228
287.121	609.819
283.298	-34.9544
279.472	22.8173
275.644	270.153
271.812	-89.0018
267.979	-16.0285
264.144	45.9081
260.306	748.681
256.466	665.678
252.623	829.229
248.777	892.442
244.93	819.137
241.08	685.341
237.228	665.629
233.372	583.471
229.515	475.904
225.655	434.484
221.793	252.46
217.928	26.762
214.061	49.3881
210.191	65.7441
206.319	181.577
202.445	508.923
198.568	44.7358
194.688	570.442
190.807	516.066
186.923	751.389
183.036	1065.01
179.146	1178.66
175.255	1478.95
171.361	1575.52
167.465	1344.06
163.565	1084.95
159.664	169.144
155.76	278.126
151.854	-122.217
147.945	-15.4884
144.033	327.047
140.12	938.194
136.203	250.884
132.284	-53.4573
128.363	124.303
124.439	102.371
120.514	309.36
118.549	210.102